File: Worked Example/Example Data/Polymer1/20230424_Polymer2_2mgml_H2SO4_0p05N.txt
20230424_F4_PCT-C3-SO3Na 2 mgml_H2SO4 0p05 N - RawData
Wavelength nm.,Abs.
200.00,0.684
202.00,0.697
204.00,0.677
206.00,0.662
208.00,0.633
210.00,0.584
212.00,0.522
214.00,0.461
216.00,0.402
218.00,0.349
220.00,0.304
222.00,0.269
224.00,0.243
226.00,0.227
228.00,0.213
230.00,0.202
232.00,0.192
234.00,0.182
236.00,0.174
238.00,0.164
240.00,0.155
242.00,0.147
244.00,0.142
246.00,0.137
248.00,0.135
250.00,0.130
252.00,0.131
254.00,0.128
256.00,0.127
258.00,0.125
260.00,0.124
262.00,0.124
264.00,0.121
266.00,0.121
268.00,0.119
270.00,0.118
272.00,0.118
274.00,0.117
276.00,0.115
278.00,0.113
280.00,0.112
282.00,0.108
284.00,0.103
286.00,0.101
288.00,0.098
290.00,0.094
292.00,0.091
294.00,0.087
296.00,0.084
298.00,0.081
300.00,0.079
302.00,0.075
304.00,0.074
306.00,0.071
308.00,0.069
310.00,0.067
312.00,0.065
314.00,0.064
316.00,0.063
318.00,0.061
320.00,0.060
322.00,0.060
324.00,0.057
326.00,0.059
328.00,0.059
330.00,0.060
332.00,0.058
334.00,0.058
336.00,0.057
338.00,0.057
340.00,0.058
342.00,0.057
344.00,0.059
346.00,0.059
348.00,0.060
350.00,0.060
352.00,0.058
354.00,0.058
356.00,0.060
358.00,0.066
360.00,0.069
362.00,0.065
364.00,0.071
366.00,0.065
368.00,0.067
370.00,0.066
372.00,0.070
374.00,0.067
376.00,0.076
378.00,0.070
380.00,0.073
382.00,0.072
384.00,0.075
386.00,0.075
388.00,0.076
390.00,0.077
392.00,0.082
394.00,0.081
396.00,0.082
398.00,0.084
400.00,0.087
402.00,0.087
404.00,0.091
406.00,0.092
408.00,0.095
410.00,0.095
412.00,0.096
414.00,0.097
416.00,0.099
418.00,0.102
420.00,0.102
422.00,0.101
424.00,0.106
426.00,0.108
428.00,0.109
430.00,0.108
432.00,0.112
434.00,0.114
436.00,0.115
438.00,0.117
440.00,0.119
442.00,0.121
444.00,0.122
446.00,0.124
448.00,0.128
450.00,0.130
452.00,0.132
454.00,0.135
456.00,0.136
458.00,0.138
460.00,0.140
462.00,0.142
464.00,0.144
466.00,0.147
468.00,0.149
470.00,0.152
472.00,0.154
474.00,0.156
476.00,0.159
478.00,0.162
480.00,0.164
482.00,0.166
484.00,0.169
486.00,0.173
488.00,0.175
490.00,0.178
492.00,0.181
494.00,0.184
496.00,0.187
498.00,0.189
500.00,0.193
502.00,0.195
504.00,0.198
506.00,0.201
508.00,0.204
510.00,0.208
512.00,0.211
514.00,0.214
516.00,0.217
518.00,0.221
520.00,0.224
522.00,0.227
524.00,0.230
526.00,0.234
528.00,0.237
530.00,0.241
532.00,0.244
534.00,0.248
536.00,0.251
538.00,0.255
540.00,0.257
542.00,0.261
544.00,0.264
546.00,0.268
548.00,0.272
550.00,0.274
552.00,0.278
554.00,0.281
556.00,0.283
558.00,0.287
560.00,0.290
562.00,0.293
564.00,0.296
566.00,0.298
568.00,0.301
570.00,0.305
572.00,0.307
574.00,0.310
576.00,0.313
578.00,0.316
580.00,0.317
582.00,0.320
584.00,0.323
586.00,0.326
588.00,0.327
590.00,0.328
592.00,0.330
594.00,0.331
596.00,0.332
598.00,0.333
600.00,0.334
602.00,0.334
604.00,0.333
606.00,0.333
608.00,0.332
610.00,0.331
612.00,0.330
614.00,0.330
616.00,0.328
618.00,0.327
620.00,0.325
622.00,0.324
624.00,0.322
626.00,0.320
628.00,0.318
630.00,0.318
632.00,0.316
634.00,0.316
636.00,0.314
638.00,0.313
640.00,0.312
642.00,0.310
644.00,0.307
646.00,0.305
648.00,0.301
650.00,0.298
652.00,0.295
654.00,0.290
656.00,0.285
658.00,0.280
660.00,0.275
662.00,0.268
664.00,0.261
666.00,0.254
668.00,0.245
670.00,0.237
672.00,0.230
674.00,0.222
676.00,0.214
678.00,0.206
680.00,0.199
682.00,0.192
684.00,0.185
686.00,0.179
688.00,0.172
690.00,0.165
692.00,0.161
694.00,0.156
696.00,0.152
698.00,0.148
700.00,0.145
702.00,0.144
704.00,0.140
706.00,0.138
708.00,0.135
710.00,0.134
712.00,0.133
714.00,0.131
716.00,0.129
718.00,0.129
720.00,0.128
722.00,0.127
724.00,0.127
726.00,0.125
728.00,0.125
730.00,0.125
732.00,0.124
734.00,0.125
736.00,0.124
738.00,0.123
740.00,0.124
742.00,0.125
744.00,0.125
746.00,0.124
748.00,0.125
750.00,0.125
752.00,0.125
754.00,0.125
756.00,0.126
758.00,0.125
760.00,0.126
762.00,0.126
764.00,0.127
766.00,0.127
768.00,0.127
770.00,0.128
772.00,0.128
774.00,0.129
776.00,0.130
778.00,0.129
780.00,0.131
782.00,0.130
784.00,0.130
786.00,0.131
788.00,0.132
790.00,0.132
792.00,0.133
794.00,0.132
796.00,0.134
798.00,0.134
800.00,0.134
802.00,0.134
804.00,0.135
806.00,0.136
808.00,0.135
810.00,0.138
812.00,0.136
814.00,0.139
816.00,0.139
818.00,0.139
820.00,0.140
822.00,0.140
824.00,0.140
826.00,0.141
828.00,0.142
830.00,0.140
832.00,0.143
834.00,0.143
836.00,0.144
838.00,0.144
840.00,0.145
842.00,0.145
844.00,0.149
846.00,0.148
848.00,0.148
850.00,0.148
852.00,0.150
854.00,0.149
856.00,0.150
858.00,0.150
860.00,0.151
862.00,0.151
864.00,0.153
866.00,0.152
868.00,0.156
870.00,0.157
872.00,0.155
874.00,0.153
876.00,0.158
878.00,0.156
880.00,0.163
882.00,0.172
884.00,0.174
886.00,0.172
888.00,0.172
890.00,0.173
892.00,0.173
894.00,0.172
896.00,0.171
898.00,0.172
900.00,0.175
902.00,0.174
904.00,0.176
906.00,0.173
908.00,0.179
910.00,0.175
912.00,0.177
914.00,0.174
916.00,0.176
918.00,0.173
920.00,0.176
922.00,0.176
924.00,0.172
926.00,0.177
928.00,0.175
930.00,0.175
932.00,0.175
934.00,0.173
936.00,0.174
938.00,0.173
940.00,0.172
942.00,0.171
944.00,0.172
946.00,0.171
948.00,0.174
950.00,0.172
952.00,0.171
954.00,0.174
956.00,0.174
958.00,0.173
960.00,0.173
962.00,0.176
964.00,0.173
966.00,0.172
968.00,0.171
970.00,0.173
972.00,0.173
974.00,0.173
976.00,0.173
978.00,0.172
980.00,0.172
982.00,0.172
984.00,0.171
986.00,0.171
988.00,0.171
990.00,0.172
992.00,0.172
994.00,0.171
996.00,0.170
998.00,0.169
1000.00,0.170
1002.00,0.167
1004.00,0.168
1006.00,0.167
1008.00,0.166
1010.00,0.166
1012.00,0.165
1014.00,0.166
1016.00,0.165
1018.00,0.164
1020.00,0.164
1022.00,0.163
1024.00,0.161
1026.00,0.162
1028.00,0.162
1030.00,0.161
1032.00,0.159
1034.00,0.159
1036.00,0.157
1038.00,0.156
1040.00,0.156
1042.00,0.155
1044.00,0.155
1046.00,0.154
1048.00,0.153
1050.00,0.152
1052.00,0.150
1054.00,0.148
1056.00,0.148
1058.00,0.149
1060.00,0.147
1062.00,0.146
1064.00,0.145
1066.00,0.142
1068.00,0.142
1070.00,0.142
1072.00,0.141
1074.00,0.139
1076.00,0.137
1078.00,0.138
1080.00,0.137
1082.00,0.135
1084.00,0.133
1086.00,0.133
1088.00,0.133
1090.00,0.131
1092.00,0.129
1094.00,0.128
1096.00,0.126
1098.00,0.125
1100.00,0.124
1102.00,0.124
1104.00,0.122
1106.00,0.120
1108.00,0.120
1110.00,0.117
1112.00,0.118
1114.00,0.115
1116.00,0.116
1118.00,0.116
1120.00,0.114
1122.00,0.112
1124.00,0.111
1126.00,0.110
1128.00,0.110
1130.00,0.108
1132.00,0.107
1134.00,0.107
1136.00,0.107
1138.00,0.106
1140.00,0.106
1142.00,0.104
1144.00,0.103
1146.00,0.103
1148.00,0.102
1150.00,0.100
1152.00,0.101
1154.00,0.100
1156.00,0.100
1158.00,0.098
1160.00,0.097
1162.00,0.098
1164.00,0.096
1166.00,0.096
1168.00,0.094
1170.00,0.094
1172.00,0.093
1174.00,0.094
1176.00,0.091
1178.00,0.091
1180.00,0.090
1182.00,0.089
1184.00,0.090
1186.00,0.089
1188.00,0.088
1190.00,0.087
1192.00,0.087
1194.00,0.087
1196.00,0.086
1198.00,0.087
1200.00,0.085
1202.00,0.083
1204.00,0.084
1206.00,0.084
1208.00,0.084
1210.00,0.083
1212.00,0.083
1214.00,0.083
1216.00,0.082
1218.00,0.082
1220.00,0.082
1222.00,0.081
1224.00,0.082
1226.00,0.082
1228.00,0.082
1230.00,0.082
1232.00,0.081
1234.00,0.081
1236.00,0.081
1238.00,0.080
1240.00,0.081
1242.00,0.081
1244.00,0.081
1246.00,0.081
1248.00,0.079
1250.00,0.079
1252.00,0.079
1254.00,0.080
1256.00,0.079
1258.00,0.078
1260.00,0.078
1262.00,0.078
1264.00,0.078
1266.00,0.078
1268.00,0.078
1270.00,0.078
1272.00,0.079
1274.00,0.080
1276.00,0.078
1278.00,0.077
1280.00,0.077
1282.00,0.079
1284.00,0.080
1286.00,0.080
1288.00,0.079
1290.00,0.078
1292.00,0.079
1294.00,0.079
1296.00,0.080
1298.00,0.079
1300.00,0.079
1302.00,0.079
1304.00,0.079
1306.00,0.080
1308.00,0.081
1310.00,0.082
1312.00,0.081
1314.00,0.082
1316.00,0.083
1318.00,0.084
1320.00,0.085
1322.00,0.084
1324.00,0.083
1326.00,0.085
1328.00,0.085
1330.00,0.086
1332.00,0.086
1334.00,0.085
1336.00,0.085
1338.00,0.087
1340.00,0.088
1342.00,0.088
1344.00,0.088
1346.00,0.088
1348.00,0.089
1350.00,0.089
1352.00,0.090
1354.00,0.091
1356.00,0.091
1358.00,0.092
1360.00,0.094
1362.00,0.095
1364.00,0.091
1366.00,0.092
1368.00,0.096
1370.00,0.096
1372.00,0.097
1374.00,0.097
1376.00,0.099
1378.00,0.099
1380.00,0.102
1382.00,0.105
1384.00,0.105
1386.00,0.107
1388.00,0.111
1390.00,0.112
1392.00,0.117
1394.00,0.122
1396.00,0.126
1398.00,0.129
1400.00,0.133
1402.00,0.136
1404.00,0.140
1406.00,0.142
1408.00,0.147
1410.00,0.148
1412.00,0.151
1414.00,0.155
1416.00,0.155
1418.00,0.159
1420.00,0.160
1422.00,0.161
1424.00,0.163
1426.00,0.166
1428.00,0.167
1430.00,0.168
1432.00,0.170
1434.00,0.173
1436.00,0.174
1438.00,0.174
1440.00,0.174
1442.00,0.176
1444.00,0.177
1446.00,0.179
1448.00,0.178
1450.00,0.178
1452.00,0.178
1454.00,0.179
1456.00,0.180
1458.00,0.180
1460.00,0.180
1462.00,0.180
1464.00,0.179
1466.00,0.179
1468.00,0.178
1470.00,0.177
1472.00,0.176
1474.00,0.177
1476.00,0.176
1478.00,0.174
1480.00,0.173
1482.00,0.171
1484.00,0.171
1486.00,0.171
1488.00,0.169
1490.00,0.168
1492.00,0.167
1494.00,0.166
1496.00,0.165
1498.00,0.164
1500.00,0.163
1502.00,0.162
1504.00,0.161
1506.00,0.160
1508.00,0.160
1510.00,0.158
1512.00,0.157
1514.00,0.157
1516.00,0.157
1518.00,0.155
1520.00,0.154
1522.00,0.153
1524.00,0.153
1526.00,0.153
1528.00,0.152
1530.00,0.152
1532.00,0.151
1534.00,0.150
1536.00,0.151
1538.00,0.150
1540.00,0.150
1542.00,0.150
1544.00,0.150
1546.00,0.149
1548.00,0.148
1550.00,0.148
1552.00,0.149
1554.00,0.149
1556.00,0.149
1558.00,0.148
1560.00,0.148
1562.00,0.148
1564.00,0.148
1566.00,0.148
1568.00,0.148
1570.00,0.148
1572.00,0.149
1574.00,0.149
1576.00,0.150
1578.00,0.149
1580.00,0.149
1582.00,0.150
1584.00,0.150
1586.00,0.150
1588.00,0.150
1590.00,0.150
1592.00,0.150
1594.00,0.150
1596.00,0.150
1598.00,0.150
1600.00,0.151
1602.00,0.152
1604.00,0.152
1606.00,0.152
1608.00,0.152
1610.00,0.152
1612.00,0.151
1614.00,0.152
1616.00,0.153
1618.00,0.154
1620.00,0.155
1622.00,0.156
1624.00,0.156
1626.00,0.156
1628.00,0.155
1630.00,0.156
1632.00,0.156
1634.00,0.158
1636.00,0.159
1638.00,0.159
1640.00,0.158
1642.00,0.159
1644.00,0.159
1646.00,0.159
1648.00,0.159
1650.00,0.160
1652.00,0.161
1654.00,0.163
1656.00,0.162
1658.00,0.162
1660.00,0.162
1662.00,0.163
1664.00,0.164
1666.00,0.164
1668.00,0.164
1670.00,0.164
1672.00,0.166
1674.00,0.166
1676.00,0.167
1678.00,0.167
1680.00,0.167
1682.00,0.167
1684.00,0.167
1686.00,0.168
1688.00,0.168
1690.00,0.169
1692.00,0.171
1694.00,0.172
1696.00,0.171
1698.00,0.172
1700.00,0.172
1702.00,0.172
1704.00,0.174
1706.00,0.174
1708.00,0.175
1710.00,0.176
1712.00,0.176
1714.00,0.176
1716.00,0.177
1718.00,0.177
1720.00,0.178
1722.00,0.180
1724.00,0.180
1726.00,0.181
1728.00,0.182
1730.00,0.183
1732.00,0.183
1734.00,0.184
1736.00,0.184
1738.00,0.185
1740.00,0.186
1742.00,0.187
1744.00,0.188
1746.00,0.188
1748.00,0.188
1750.00,0.189
1752.00,0.191
1754.00,0.192
1756.00,0.192
1758.00,0.193
1760.00,0.194
1762.00,0.195
1764.00,0.195
1766.00,0.195
1768.00,0.197
1770.00,0.198
1772.00,0.199
1774.00,0.200
1776.00,0.200
1778.00,0.200
1780.00,0.202
1782.00,0.203
1784.00,0.202
1786.00,0.202
1788.00,0.203
1790.00,0.205
1792.00,0.205
1794.00,0.205
1796.00,0.207
1798.00,0.207
1800.00,0.208
1802.00,0.208
1804.00,0.209
1806.00,0.208
1808.00,0.209
1810.00,0.209
1812.00,0.209
1814.00,0.211
1816.00,0.211
1818.00,0.210
1820.00,0.215
1822.00,0.211
1824.00,0.212
1826.00,0.215
1828.00,0.215
1830.00,0.213
1832.00,0.215
1834.00,0.214
1836.00,0.219
1838.00,0.218
1840.00,0.222
1842.00,0.220
1844.00,0.223
1846.00,0.229
1848.00,0.231
1850.00,0.226
1852.00,0.228
1854.00,0.232
1856.00,0.233
1858.00,0.229
1860.00,0.232
1862.00,0.236
1864.00,0.241
1866.00,0.248
1868.00,0.256
1870.00,0.254
1872.00,0.267
1874.00,0.266
1876.00,0.276
1878.00,0.285
1880.00,0.294
1882.00,0.304
1884.00,0.319
1886.00,0.334
1888.00,0.352
1890.00,0.365
1892.00,0.386
1894.00,0.403
1896.00,0.419
1898.00,0.439
1900.00,0.454
1902.00,0.466
1904.00,0.488
1906.00,0.497
1908.00,0.505
1910.00,0.515
1912.00,0.516
1914.00,0.527
1916.00,0.536
1918.00,0.543
1920.00,0.550
1922.00,0.551
1924.00,0.547
1926.00,0.551
1928.00,0.556
1930.00,0.557
1932.00,0.556
1934.00,0.553
1936.00,0.553
1938.00,0.551
1940.00,0.549
1942.00,0.546
1944.00,0.540
1946.00,0.538
1948.00,0.534
1950.00,0.528
1952.00,0.524
1954.00,0.520
1956.00,0.515
1958.00,0.511
1960.00,0.508
1962.00,0.503
1964.00,0.498
1966.00,0.491
1968.00,0.486
1970.00,0.484
1972.00,0.477
1974.00,0.473
1976.00,0.469
1978.00,0.465
1980.00,0.461
1982.00,0.456
1984.00,0.452
1986.00,0.448
1988.00,0.443
1990.00,0.439
1992.00,0.435
1994.00,0.433
1996.00,0.429
1998.00,0.426
2000.00,0.422
2002.00,0.417
2004.00,0.415
2006.00,0.411
2008.00,0.409
2010.00,0.405
2012.00,0.404
2014.00,0.401
2016.00,0.398
2018.00,0.395
2020.00,0.393
2022.00,0.390
2024.00,0.388
2026.00,0.386
2028.00,0.382
2030.00,0.380
2032.00,0.379
2034.00,0.376
2036.00,0.372
2038.00,0.373
2040.00,0.372
2042.00,0.370
2044.00,0.369
2046.00,0.367
2048.00,0.363
2050.00,0.361
2052.00,0.360
2054.00,0.358
2056.00,0.356
2058.00,0.355
2060.00,0.356
2062.00,0.354
2064.00,0.353
2066.00,0.351
2068.00,0.351
2070.00,0.349
2072.00,0.350
2074.00,0.347
2076.00,0.347
2078.00,0.344
2080.00,0.344
2082.00,0.344
2084.00,0.343
2086.00,0.341
2088.00,0.340
2090.00,0.342
2092.00,0.338
2094.00,0.338
2096.00,0.338
2098.00,0.337
2100.00,0.337
2102.00,0.336
2104.00,0.335
2106.00,0.333
2108.00,0.333
2110.00,0.331
2112.00,0.330
2114.00,0.332
2116.00,0.330
2118.00,0.331
2120.00,0.332
2122.00,0.330
2124.00,0.330
2126.00,0.329
2128.00,0.330
2130.00,0.330
2132.00,0.330
2134.00,0.328
2136.00,0.328
2138.00,0.328
2140.00,0.329
2142.00,0.328
2144.00,0.327
2146.00,0.328
2148.00,0.327
2150.00,0.328
2152.00,0.330
2154.00,0.328
2156.00,0.329
2158.00,0.330
2160.00,0.332
2162.00,0.330
2164.00,0.328
2166.00,0.329
2168.00,0.329
2170.00,0.329
2172.00,0.329
2174.00,0.330
2176.00,0.331
2178.00,0.334
2180.00,0.333
2182.00,0.333
2184.00,0.331
2186.00,0.335
2188.00,0.333
2190.00,0.332
2192.00,0.333
2194.00,0.335
2196.00,0.333
2198.00,0.333
2200.00,0.335
2202.00,0.334
2204.00,0.336
2206.00,0.337
2208.00,0.337
2210.00,0.339
2212.00,0.337
2214.00,0.339
2216.00,0.338
2218.00,0.339
2220.00,0.339
2222.00,0.339
2224.00,0.339
2226.00,0.339
2228.00,0.340
2230.00,0.341
2232.00,0.340
2234.00,0.342
2236.00,0.343
2238.00,0.343
2240.00,0.343
2242.00,0.344
2244.00,0.346
2246.00,0.349
2248.00,0.346
2250.00,0.349
2252.00,0.350
2254.00,0.350
2256.00,0.350
2258.00,0.350
2260.00,0.351
2262.00,0.353
2264.00,0.351
2266.00,0.353
2268.00,0.355
2270.00,0.355
2272.00,0.358
2274.00,0.357
2276.00,0.359
2278.00,0.358
2280.00,0.358
2282.00,0.359
2284.00,0.360
2286.00,0.362
2288.00,0.362
2290.00,0.362
2292.00,0.365
2294.00,0.366
2296.00,0.364
2298.00,0.366
2300.00,0.370
2302.00,0.370
2304.00,0.372
2306.00,0.373
2308.00,0.374
2310.00,0.375
2312.00,0.376
2314.00,0.378
2316.00,0.379
2318.00,0.380
2320.00,0.382
2322.00,0.384
2324.00,0.385
2326.00,0.384
2328.00,0.386
2330.00,0.389
2332.00,0.391
2334.00,0.392
2336.00,0.395
2338.00,0.396
2340.00,0.400
2342.00,0.403
2344.00,0.402
2346.00,0.403
2348.00,0.404
2350.00,0.407
2352.00,0.407
2354.00,0.408
2356.00,0.411
2358.00,0.414
2360.00,0.415
2362.00,0.417
2364.00,0.418
2366.00,0.418
2368.00,0.422
2370.00,0.425
2372.00,0.425
2374.00,0.427
2376.00,0.431
2378.00,0.433
2380.00,0.433
2382.00,0.436
2384.00,0.437
2386.00,0.437
2388.00,0.443
2390.00,0.442
2392.00,0.444
2394.00,0.449
2396.00,0.449
2398.00,0.452
2400.00,0.456
2402.00,0.455
2404.00,0.454
2406.00,0.460
2408.00,0.465
2410.00,0.466
2412.00,0.467
2414.00,0.471
2416.00,0.469
2418.00,0.473
2420.00,0.479
2422.00,0.478
2424.00,0.483
2426.00,0.486
2428.00,0.485
2430.00,0.490
2432.00,0.495
2434.00,0.493
2436.00,0.500
2438.00,0.502
2440.00,0.504
2442.00,0.509
2444.00,0.510
2446.00,0.514
2448.00,0.521
2450.00,0.520
2452.00,0.522
2454.00,0.526
2456.00,0.527
2458.00,0.532
2460.00,0.535
2462.00,0.538
2464.00,0.541
2466.00,0.545
2468.00,0.548
2470.00,0.553
2472.00,0.549
2474.00,0.560
2476.00,0.564
2478.00,0.561
2480.00,0.572
2482.00,0.571
2484.00,0.576
2486.00,0.579
2488.00,0.579
2490.00,0.582
2492.00,0.586
2494.00,0.584
2496.00,0.593
2498.00,0.593
2500.00,0.594
2502.00,0.601
2504.00,0.598
2506.00,0.602
2508.00,0.604
2510.00,0.604
2512.00,0.603
2514.00,0.611
2516.00,0.610
2518.00,0.613
2520.00,0.612
2522.00,0.616
2524.00,0.618
2526.00,0.617
2528.00,0.622
2530.00,0.620
2532.00,0.623
2534.00,0.627
2536.00,0.621
2538.00,0.626
2540.00,0.619
2542.00,0.630
2544.00,0.623
2546.00,0.620
2548.00,0.628
2550.00,0.629
2552.00,0.624
2554.00,0.629
2556.00,0.628
2558.00,0.636
2560.00,0.643
2562.00,0.653
2564.00,0.662
2566.00,0.638
2568.00,0.665
2570.00,0.640
2572.00,0.637
2574.00,0.635
2576.00,0.636
2578.00,0.635
2580.00,0.646
2582.00,0.707
2584.00,0.666
2586.00,0.660
2588.00,0.673
2590.00,0.663
2592.00,0.671
2594.00,0.708
2596.00,0.658
2598.00,0.662
2600.00,0.682