File: Worked Example/Example Data/Polymer1/20230424_Polymer1_2mgml_H2SO4_0p01N.txt
20230424_F3_PCT-C3-SO3Na 2 mgml_H2SO4 0p01 N-2 - RawData
Wavelength nm.,Abs.
200.00,0.664
202.00,0.674
204.00,0.659
206.00,0.636
208.00,0.611
210.00,0.571
212.00,0.513
214.00,0.448
216.00,0.395
218.00,0.339
220.00,0.298
222.00,0.261
224.00,0.238
226.00,0.222
228.00,0.208
230.00,0.195
232.00,0.185
234.00,0.175
236.00,0.166
238.00,0.156
240.00,0.148
242.00,0.141
244.00,0.134
246.00,0.131
248.00,0.128
250.00,0.125
252.00,0.124
254.00,0.122
256.00,0.121
258.00,0.119
260.00,0.118
262.00,0.118
264.00,0.116
266.00,0.116
268.00,0.115
270.00,0.114
272.00,0.115
274.00,0.113
276.00,0.112
278.00,0.109
280.00,0.107
282.00,0.104
284.00,0.100
286.00,0.098
288.00,0.093
290.00,0.089
292.00,0.085
294.00,0.083
296.00,0.080
298.00,0.077
300.00,0.074
302.00,0.069
304.00,0.069
306.00,0.066
308.00,0.064
310.00,0.063
312.00,0.060
314.00,0.058
316.00,0.057
318.00,0.057
320.00,0.055
322.00,0.054
324.00,0.054
326.00,0.053
328.00,0.053
330.00,0.053
332.00,0.052
334.00,0.051
336.00,0.053
338.00,0.052
340.00,0.053
342.00,0.053
344.00,0.053
346.00,0.055
348.00,0.055
350.00,0.055
352.00,0.054
354.00,0.054
356.00,0.055
358.00,0.060
360.00,0.059
362.00,0.060
364.00,0.068
366.00,0.060
368.00,0.061
370.00,0.064
372.00,0.069
374.00,0.066
376.00,0.067
378.00,0.061
380.00,0.066
382.00,0.070
384.00,0.073
386.00,0.072
388.00,0.076
390.00,0.076
392.00,0.077
394.00,0.079
396.00,0.080
398.00,0.080
400.00,0.083
402.00,0.083
404.00,0.089
406.00,0.089
408.00,0.091
410.00,0.091
412.00,0.092
414.00,0.095
416.00,0.095
418.00,0.098
420.00,0.099
422.00,0.101
424.00,0.104
426.00,0.107
428.00,0.109
430.00,0.109
432.00,0.111
434.00,0.113
436.00,0.115
438.00,0.116
440.00,0.119
442.00,0.120
444.00,0.122
446.00,0.125
448.00,0.128
450.00,0.130
452.00,0.132
454.00,0.135
456.00,0.136
458.00,0.138
460.00,0.141
462.00,0.143
464.00,0.145
466.00,0.148
468.00,0.150
470.00,0.152
472.00,0.155
474.00,0.158
476.00,0.161
478.00,0.164
480.00,0.165
482.00,0.168
484.00,0.171
486.00,0.175
488.00,0.178
490.00,0.180
492.00,0.184
494.00,0.186
496.00,0.190
498.00,0.193
500.00,0.196
502.00,0.199
504.00,0.202
506.00,0.206
508.00,0.209
510.00,0.213
512.00,0.216
514.00,0.220
516.00,0.223
518.00,0.226
520.00,0.230
522.00,0.233
524.00,0.237
526.00,0.241
528.00,0.245
530.00,0.249
532.00,0.253
534.00,0.256
536.00,0.260
538.00,0.264
540.00,0.267
542.00,0.271
544.00,0.274
546.00,0.278
548.00,0.283
550.00,0.285
552.00,0.289
554.00,0.293
556.00,0.296
558.00,0.299
560.00,0.303
562.00,0.306
564.00,0.309
566.00,0.313
568.00,0.315
570.00,0.319
572.00,0.321
574.00,0.325
576.00,0.328
578.00,0.331
580.00,0.334
582.00,0.336
584.00,0.339
586.00,0.342
588.00,0.344
590.00,0.346
592.00,0.347
594.00,0.349
596.00,0.350
598.00,0.351
600.00,0.351
602.00,0.352
604.00,0.351
606.00,0.351
608.00,0.350
610.00,0.349
612.00,0.348
614.00,0.347
616.00,0.346
618.00,0.346
620.00,0.344
622.00,0.342
624.00,0.341
626.00,0.339
628.00,0.337
630.00,0.336
632.00,0.334
634.00,0.334
636.00,0.332
638.00,0.330
640.00,0.329
642.00,0.327
644.00,0.326
646.00,0.323
648.00,0.319
650.00,0.315
652.00,0.310
654.00,0.306
656.00,0.301
658.00,0.295
660.00,0.289
662.00,0.281
664.00,0.274
666.00,0.266
668.00,0.256
670.00,0.248
672.00,0.238
674.00,0.230
676.00,0.221
678.00,0.212
680.00,0.205
682.00,0.196
684.00,0.189
686.00,0.182
688.00,0.174
690.00,0.167
692.00,0.162
694.00,0.157
696.00,0.152
698.00,0.148
700.00,0.145
702.00,0.142
704.00,0.139
706.00,0.136
708.00,0.133
710.00,0.131
712.00,0.130
714.00,0.129
716.00,0.127
718.00,0.126
720.00,0.125
722.00,0.124
724.00,0.123
726.00,0.122
728.00,0.123
730.00,0.122
732.00,0.122
734.00,0.122
736.00,0.121
738.00,0.120
740.00,0.120
742.00,0.122
744.00,0.121
746.00,0.120
748.00,0.121
750.00,0.121
752.00,0.121
754.00,0.121
756.00,0.123
758.00,0.122
760.00,0.122
762.00,0.123
764.00,0.123
766.00,0.123
768.00,0.122
770.00,0.124
772.00,0.124
774.00,0.125
776.00,0.125
778.00,0.124
780.00,0.125
782.00,0.126
784.00,0.128
786.00,0.127
788.00,0.126
790.00,0.127
792.00,0.128
794.00,0.127
796.00,0.130
798.00,0.130
800.00,0.131
802.00,0.131
804.00,0.132
806.00,0.133
808.00,0.132
810.00,0.134
812.00,0.133
814.00,0.133
816.00,0.133
818.00,0.135
820.00,0.134
822.00,0.136
824.00,0.137
826.00,0.135
828.00,0.138
830.00,0.138
832.00,0.138
834.00,0.139
836.00,0.141
838.00,0.141
840.00,0.140
842.00,0.143
844.00,0.144
846.00,0.143
848.00,0.146
850.00,0.144
852.00,0.146
854.00,0.147
856.00,0.147
858.00,0.146
860.00,0.145
862.00,0.149
864.00,0.149
866.00,0.150
868.00,0.150
870.00,0.151
872.00,0.151
874.00,0.152
876.00,0.152
878.00,0.150
880.00,0.168
882.00,0.175
884.00,0.179
886.00,0.176
888.00,0.175
890.00,0.175
892.00,0.176
894.00,0.175
896.00,0.170
898.00,0.172
900.00,0.177
902.00,0.177
904.00,0.178
906.00,0.175
908.00,0.178
910.00,0.178
912.00,0.178
914.00,0.173
916.00,0.176
918.00,0.175
920.00,0.176
922.00,0.177
924.00,0.174
926.00,0.177
928.00,0.176
930.00,0.175
932.00,0.177
934.00,0.175
936.00,0.174
938.00,0.174
940.00,0.174
942.00,0.174
944.00,0.173
946.00,0.172
948.00,0.173
950.00,0.173
952.00,0.173
954.00,0.173
956.00,0.176
958.00,0.173
960.00,0.175
962.00,0.176
964.00,0.173
966.00,0.173
968.00,0.172
970.00,0.173
972.00,0.172
974.00,0.173
976.00,0.174
978.00,0.172
980.00,0.173
982.00,0.172
984.00,0.171
986.00,0.171
988.00,0.173
990.00,0.173
992.00,0.172
994.00,0.172
996.00,0.170
998.00,0.171
1000.00,0.170
1002.00,0.169
1004.00,0.169
1006.00,0.170
1008.00,0.169
1010.00,0.166
1012.00,0.168
1014.00,0.167
1016.00,0.166
1018.00,0.166
1020.00,0.164
1022.00,0.164
1024.00,0.163
1026.00,0.164
1028.00,0.162
1030.00,0.162
1032.00,0.160
1034.00,0.159
1036.00,0.160
1038.00,0.157
1040.00,0.156
1042.00,0.155
1044.00,0.155
1046.00,0.154
1048.00,0.153
1050.00,0.153
1052.00,0.150
1054.00,0.150
1056.00,0.150
1058.00,0.149
1060.00,0.148
1062.00,0.146
1064.00,0.146
1066.00,0.144
1068.00,0.144
1070.00,0.142
1072.00,0.141
1074.00,0.141
1076.00,0.140
1078.00,0.139
1080.00,0.136
1082.00,0.135
1084.00,0.135
1086.00,0.135
1088.00,0.132
1090.00,0.130
1092.00,0.129
1094.00,0.128
1096.00,0.127
1098.00,0.125
1100.00,0.124
1102.00,0.124
1104.00,0.122
1106.00,0.121
1108.00,0.119
1110.00,0.117
1112.00,0.117
1114.00,0.115
1116.00,0.115
1118.00,0.114
1120.00,0.112
1122.00,0.111
1124.00,0.109
1126.00,0.108
1128.00,0.107
1130.00,0.105
1132.00,0.106
1134.00,0.104
1136.00,0.103
1138.00,0.102
1140.00,0.102
1142.00,0.101
1144.00,0.100
1146.00,0.097
1148.00,0.097
1150.00,0.098
1152.00,0.097
1154.00,0.096
1156.00,0.095
1158.00,0.093
1160.00,0.093
1162.00,0.092
1164.00,0.091
1166.00,0.090
1168.00,0.090
1170.00,0.089
1172.00,0.089
1174.00,0.088
1176.00,0.087
1178.00,0.087
1180.00,0.087
1182.00,0.085
1184.00,0.084
1186.00,0.084
1188.00,0.083
1190.00,0.083
1192.00,0.082
1194.00,0.081
1196.00,0.080
1198.00,0.081
1200.00,0.079
1202.00,0.078
1204.00,0.079
1206.00,0.079
1208.00,0.077
1210.00,0.077
1212.00,0.077
1214.00,0.077
1216.00,0.077
1218.00,0.076
1220.00,0.075
1222.00,0.075
1224.00,0.075
1226.00,0.076
1228.00,0.076
1230.00,0.075
1232.00,0.074
1234.00,0.074
1236.00,0.075
1238.00,0.075
1240.00,0.074
1242.00,0.075
1244.00,0.075
1246.00,0.075
1248.00,0.074
1250.00,0.073
1252.00,0.073
1254.00,0.073
1256.00,0.073
1258.00,0.073
1260.00,0.072
1262.00,0.072
1264.00,0.072
1266.00,0.072
1268.00,0.072
1270.00,0.072
1272.00,0.072
1274.00,0.073
1276.00,0.073
1278.00,0.072
1280.00,0.071
1282.00,0.072
1284.00,0.072
1286.00,0.073
1288.00,0.073
1290.00,0.071
1292.00,0.071
1294.00,0.072
1296.00,0.073
1298.00,0.073
1300.00,0.072
1302.00,0.072
1304.00,0.071
1306.00,0.072
1308.00,0.074
1310.00,0.075
1312.00,0.074
1314.00,0.074
1316.00,0.075
1318.00,0.076
1320.00,0.077
1322.00,0.077
1324.00,0.076
1326.00,0.077
1328.00,0.077
1330.00,0.078
1332.00,0.078
1334.00,0.078
1336.00,0.078
1338.00,0.079
1340.00,0.081
1342.00,0.080
1344.00,0.081
1346.00,0.081
1348.00,0.082
1350.00,0.081
1352.00,0.082
1354.00,0.084
1356.00,0.084
1358.00,0.085
1360.00,0.084
1362.00,0.085
1364.00,0.086
1366.00,0.086
1368.00,0.087
1370.00,0.088
1372.00,0.088
1374.00,0.089
1376.00,0.090
1378.00,0.091
1380.00,0.093
1382.00,0.093
1384.00,0.097
1386.00,0.102
1388.00,0.100
1390.00,0.105
1392.00,0.108
1394.00,0.110
1396.00,0.114
1398.00,0.117
1400.00,0.123
1402.00,0.128
1404.00,0.133
1406.00,0.137
1408.00,0.137
1410.00,0.142
1412.00,0.144
1414.00,0.146
1416.00,0.150
1418.00,0.150
1420.00,0.152
1422.00,0.154
1424.00,0.157
1426.00,0.160
1428.00,0.160
1430.00,0.163
1432.00,0.164
1434.00,0.165
1436.00,0.167
1438.00,0.168
1440.00,0.168
1442.00,0.170
1444.00,0.172
1446.00,0.170
1448.00,0.171
1450.00,0.172
1452.00,0.173
1454.00,0.172
1456.00,0.171
1458.00,0.172
1460.00,0.174
1462.00,0.173
1464.00,0.172
1466.00,0.171
1468.00,0.171
1470.00,0.171
1472.00,0.170
1474.00,0.169
1476.00,0.167
1478.00,0.165
1480.00,0.165
1482.00,0.165
1484.00,0.163
1486.00,0.162
1488.00,0.161
1490.00,0.160
1492.00,0.159
1494.00,0.157
1496.00,0.156
1498.00,0.156
1500.00,0.155
1502.00,0.154
1504.00,0.152
1506.00,0.151
1508.00,0.151
1510.00,0.150
1512.00,0.149
1514.00,0.148
1516.00,0.147
1518.00,0.147
1520.00,0.146
1522.00,0.145
1524.00,0.144
1526.00,0.143
1528.00,0.143
1530.00,0.143
1532.00,0.142
1534.00,0.141
1536.00,0.142
1538.00,0.141
1540.00,0.141
1542.00,0.140
1544.00,0.140
1546.00,0.140
1548.00,0.141
1550.00,0.140
1552.00,0.140
1554.00,0.139
1556.00,0.140
1558.00,0.139
1560.00,0.140
1562.00,0.139
1564.00,0.139
1566.00,0.139
1568.00,0.138
1570.00,0.138
1572.00,0.139
1574.00,0.139
1576.00,0.140
1578.00,0.141
1580.00,0.140
1582.00,0.140
1584.00,0.141
1586.00,0.141
1588.00,0.140
1590.00,0.140
1592.00,0.140
1594.00,0.141
1596.00,0.142
1598.00,0.142
1600.00,0.141
1602.00,0.143
1604.00,0.142
1606.00,0.143
1608.00,0.141
1610.00,0.142
1612.00,0.142
1614.00,0.144
1616.00,0.144
1618.00,0.145
1620.00,0.145
1622.00,0.146
1624.00,0.145
1626.00,0.145
1628.00,0.145
1630.00,0.146
1632.00,0.147
1634.00,0.147
1636.00,0.148
1638.00,0.147
1640.00,0.148
1642.00,0.148
1644.00,0.149
1646.00,0.149
1648.00,0.149
1650.00,0.152
1652.00,0.152
1654.00,0.152
1656.00,0.151
1658.00,0.151
1660.00,0.151
1662.00,0.152
1664.00,0.153
1666.00,0.154
1668.00,0.154
1670.00,0.155
1672.00,0.156
1674.00,0.154
1676.00,0.155
1678.00,0.156
1680.00,0.156
1682.00,0.158
1684.00,0.158
1686.00,0.157
1688.00,0.159
1690.00,0.159
1692.00,0.160
1694.00,0.161
1696.00,0.160
1698.00,0.161
1700.00,0.163
1702.00,0.162
1704.00,0.163
1706.00,0.165
1708.00,0.164
1710.00,0.165
1712.00,0.166
1714.00,0.164
1716.00,0.166
1718.00,0.167
1720.00,0.167
1722.00,0.169
1724.00,0.170
1726.00,0.171
1728.00,0.171
1730.00,0.172
1732.00,0.173
1734.00,0.172
1736.00,0.173
1738.00,0.175
1740.00,0.177
1742.00,0.177
1744.00,0.177
1746.00,0.178
1748.00,0.179
1750.00,0.180
1752.00,0.179
1754.00,0.180
1756.00,0.182
1758.00,0.184
1760.00,0.184
1762.00,0.184
1764.00,0.185
1766.00,0.187
1768.00,0.187
1770.00,0.187
1772.00,0.188
1774.00,0.190
1776.00,0.191
1778.00,0.191
1780.00,0.192
1782.00,0.193
1784.00,0.194
1786.00,0.196
1788.00,0.197
1790.00,0.197
1792.00,0.196
1794.00,0.197
1796.00,0.198
1798.00,0.199
1800.00,0.199
1802.00,0.199
1804.00,0.201
1806.00,0.202
1808.00,0.203
1810.00,0.203
1812.00,0.203
1814.00,0.206
1816.00,0.203
1818.00,0.205
1820.00,0.208
1822.00,0.204
1824.00,0.203
1826.00,0.213
1828.00,0.206
1830.00,0.208
1832.00,0.208
1834.00,0.209
1836.00,0.212
1838.00,0.209
1840.00,0.211
1842.00,0.209
1844.00,0.214
1846.00,0.215
1848.00,0.215
1850.00,0.220
1852.00,0.227
1854.00,0.224
1856.00,0.223
1858.00,0.223
1860.00,0.230
1862.00,0.230
1864.00,0.235
1866.00,0.242
1868.00,0.244
1870.00,0.246
1872.00,0.267
1874.00,0.261
1876.00,0.266
1878.00,0.278
1880.00,0.288
1882.00,0.297
1884.00,0.314
1886.00,0.326
1888.00,0.341
1890.00,0.361
1892.00,0.381
1894.00,0.400
1896.00,0.419
1898.00,0.435
1900.00,0.452
1902.00,0.469
1904.00,0.485
1906.00,0.495
1908.00,0.503
1910.00,0.515
1912.00,0.518
1914.00,0.527
1916.00,0.536
1918.00,0.539
1920.00,0.551
1922.00,0.548
1924.00,0.549
1926.00,0.554
1928.00,0.555
1930.00,0.558
1932.00,0.558
1934.00,0.553
1936.00,0.555
1938.00,0.553
1940.00,0.550
1942.00,0.545
1944.00,0.543
1946.00,0.538
1948.00,0.534
1950.00,0.530
1952.00,0.525
1954.00,0.520
1956.00,0.514
1958.00,0.510
1960.00,0.505
1962.00,0.501
1964.00,0.495
1966.00,0.491
1968.00,0.485
1970.00,0.480
1972.00,0.477
1974.00,0.473
1976.00,0.468
1978.00,0.462
1980.00,0.460
1982.00,0.454
1984.00,0.450
1986.00,0.445
1988.00,0.440
1990.00,0.435
1992.00,0.433
1994.00,0.428
1996.00,0.426
1998.00,0.423
2000.00,0.419
2002.00,0.415
2004.00,0.413
2006.00,0.410
2008.00,0.406
2010.00,0.403
2012.00,0.399
2014.00,0.396
2016.00,0.393
2018.00,0.391
2020.00,0.388
2022.00,0.385
2024.00,0.383
2026.00,0.381
2028.00,0.379
2030.00,0.375
2032.00,0.374
2034.00,0.371
2036.00,0.368
2038.00,0.365
2040.00,0.365
2042.00,0.363
2044.00,0.365
2046.00,0.362
2048.00,0.360
2050.00,0.358
2052.00,0.355
2054.00,0.354
2056.00,0.352
2058.00,0.351
2060.00,0.350
2062.00,0.350
2064.00,0.347
2066.00,0.347
2068.00,0.343
2070.00,0.341
2072.00,0.342
2074.00,0.340
2076.00,0.339
2078.00,0.339
2080.00,0.338
2082.00,0.337
2084.00,0.337
2086.00,0.336
2088.00,0.333
2090.00,0.334
2092.00,0.331
2094.00,0.330
2096.00,0.330
2098.00,0.329
2100.00,0.329
2102.00,0.330
2104.00,0.330
2106.00,0.326
2108.00,0.325
2110.00,0.324
2112.00,0.326
2114.00,0.327
2116.00,0.326
2118.00,0.324
2120.00,0.325
2122.00,0.323
2124.00,0.322
2126.00,0.322
2128.00,0.323
2130.00,0.325
2132.00,0.324
2134.00,0.323
2136.00,0.321
2138.00,0.321
2140.00,0.323
2142.00,0.324
2144.00,0.322
2146.00,0.320
2148.00,0.320
2150.00,0.322
2152.00,0.323
2154.00,0.323
2156.00,0.321
2158.00,0.321
2160.00,0.322
2162.00,0.322
2164.00,0.324
2166.00,0.325
2168.00,0.322
2170.00,0.321
2172.00,0.321
2174.00,0.325
2176.00,0.326
2178.00,0.323
2180.00,0.326
2182.00,0.324
2184.00,0.325
2186.00,0.329
2188.00,0.330
2190.00,0.329
2192.00,0.325
2194.00,0.327
2196.00,0.330
2198.00,0.329
2200.00,0.330
2202.00,0.327
2204.00,0.327
2206.00,0.330
2208.00,0.332
2210.00,0.328
2212.00,0.329
2214.00,0.331
2216.00,0.332
2218.00,0.335
2220.00,0.331
2222.00,0.330
2224.00,0.335
2226.00,0.337
2228.00,0.334
2230.00,0.333
2232.00,0.336
2234.00,0.338
2236.00,0.334
2238.00,0.335
2240.00,0.338
2242.00,0.341
2244.00,0.337
2246.00,0.337
2248.00,0.338
2250.00,0.343
2252.00,0.345
2254.00,0.341
2256.00,0.341
2258.00,0.345
2260.00,0.346
2262.00,0.343
2264.00,0.344
2266.00,0.348
2268.00,0.348
2270.00,0.349
2272.00,0.348
2274.00,0.350
2276.00,0.354
2278.00,0.351
2280.00,0.349
2282.00,0.355
2284.00,0.359
2286.00,0.353
2288.00,0.353
2290.00,0.361
2292.00,0.361
2294.00,0.356
2296.00,0.359
2298.00,0.365
2300.00,0.363
2302.00,0.360
2304.00,0.365
2306.00,0.370
2308.00,0.364
2310.00,0.367
2312.00,0.375
2314.00,0.371
2316.00,0.370
2318.00,0.378
2320.00,0.378
2322.00,0.375
2324.00,0.379
2326.00,0.382
2328.00,0.383
2330.00,0.380
2332.00,0.384
2334.00,0.388
2336.00,0.386
2338.00,0.389
2340.00,0.398
2342.00,0.395
2344.00,0.391
2346.00,0.398
2348.00,0.403
2350.00,0.399
2352.00,0.402
2354.00,0.408
2356.00,0.408
2358.00,0.404
2360.00,0.412
2362.00,0.411
2364.00,0.408
2366.00,0.417
2368.00,0.420
2370.00,0.416
2372.00,0.422
2374.00,0.426
2376.00,0.421
2378.00,0.426
2380.00,0.436
2382.00,0.428
2384.00,0.432
2386.00,0.439
2388.00,0.437
2390.00,0.435
2392.00,0.446
2394.00,0.439
2396.00,0.444
2398.00,0.452
2400.00,0.445
2402.00,0.448
2404.00,0.460
2406.00,0.454
2408.00,0.457
2410.00,0.467
2412.00,0.465
2414.00,0.462
2416.00,0.475
2418.00,0.469
2420.00,0.471
2422.00,0.481
2424.00,0.477
2426.00,0.480
2428.00,0.490
2430.00,0.482
2432.00,0.486
2434.00,0.496
2436.00,0.493
2438.00,0.492
2440.00,0.505
2442.00,0.499
2444.00,0.507
2446.00,0.519
2448.00,0.509
2450.00,0.517
2452.00,0.525
2454.00,0.518
2456.00,0.532
2458.00,0.527
2460.00,0.530
2462.00,0.544
2464.00,0.538
2466.00,0.544
2468.00,0.554
2470.00,0.545
2472.00,0.559
2474.00,0.554
2476.00,0.558
2478.00,0.568
2480.00,0.565
2482.00,0.574
2484.00,0.569
2486.00,0.573
2488.00,0.584
2490.00,0.579
2492.00,0.585
2494.00,0.589
2496.00,0.584
2498.00,0.594
2500.00,0.600
2502.00,0.589
2504.00,0.604
2506.00,0.603
2508.00,0.600
2510.00,0.614
2512.00,0.606
2514.00,0.611
2516.00,0.616
2518.00,0.608
2520.00,0.621
2522.00,0.614
2524.00,0.616
2526.00,0.627
2528.00,0.615
2530.00,0.626
2532.00,0.618
2534.00,0.623
2536.00,0.631
2538.00,0.616
2540.00,0.631
2542.00,0.629
2544.00,0.632
2546.00,0.640
2548.00,0.616
2550.00,0.636
2552.00,0.637
2554.00,0.635
2556.00,0.632
2558.00,0.614
2560.00,0.646
2562.00,0.649
2564.00,0.652
2566.00,0.637
2568.00,0.647
2570.00,0.640
2572.00,0.650
2574.00,0.660
2576.00,0.661
2578.00,0.655
2580.00,0.645
2582.00,0.673
2584.00,0.661
2586.00,0.671
2588.00,0.644
2590.00,0.665
2592.00,0.642
2594.00,0.713
2596.00,0.672
2598.00,0.688
2600.00,0.689